time,foot_1_acc_x,foot_1_acc_y,foot_1_acc_z,foot_1_gyro_x,foot_1_gyro_y,foot_1_gyro_z,foot_2_acc_x,foot_2_acc_y,foot_2_acc_z,foot_2_gyro_x,foot_2_gyro_y,foot_2_gyro_z
1511659044.9739802,0.08614469319581985,17.01597023010254,-3.2711052894592285,-8.119999885559082,31.219999313354492,179.41000366210938,-1.8640754222869873,9.600347518920898,-0.5455830693244934,3.640000104904175,1.6100000143051147,-17.290000915527344
1511659045.028187,-1.2921704053878784,5.4773664474487305,-2.4718739986419678,-48.02000045776367,68.87999725341797,195.9300079345703,-1.5721405744552612,9.918603897094727,-0.5168681740760803,6.369999885559082,-3.5,-4.340000152587891
1511659045.1451623,0.5742979645729065,10.08610725402832,0.20818300545215607,25.059999465942383,-58.17000198364258,-140.97999572753906,-1.9023619890213013,9.492666244506836,-0.40918728709220886,-4.900000095367432,0.699999988079071,-11.199999809265137
1511659045.267818,5.13039493560791,14.005691528320312,-2.5460541248321533,-7.490000247955322,-100.66000366210938,-197.1199951171875,-1.9238981008529663,9.578810691833496,-0.6532639265060425,-1.3300000429153442,0.0,-10.710000038146973
1511659045.3799574,16.53978157043457,6.963362693786621,-1.5075321197509766,28.700000762939453,-48.93000030517578,-123.4800033569336,-1.830574631690979,9.404129028320312,-1.387886643409729,3.1500000953674316,-3.009999990463257,-9.520000457763672
1511659045.5146265,23.113100051879883,9.617097854614258,15.39836311340332,-63.42000198364258,10.079999923706055,93.7300033569336,-2.4910173416137695,9.743921279907227,-0.5312256217002869,-11.6899995803833,3.009999990463257,-22.049999237060547
1511659045.6095967,4.572847366333008,16.243061065673828,2.7374868392944336,1.0499999523162842,-4.480000019073486,178.14999389648438,-1.4668526649475098,17.1356143951416,0.758551836013794,-26.110000610351562,0.49000000953674316,-38.150001525878906
1511659045.737334,2.457516670227051,10.246432304382324,0.09810923039913177,11.40999984741211,0.14000000059604645,15.890000343322754,-1.05048668384552,13.093993186950684,-7.262475967407227,23.309999465942383,-3.8499999046325684,-134.1199951171875
1511659045.8590825,1.7659661769866943,9.605133056640625,-1.275420069694519,13.579999923706055,-3.640000104904175,9.520000457763672,7.958812236785889,14.065513610839844,-4.670956611633301,-12.600000381469727,-73.70999908447266,-331.5899963378906
1511659045.9193034,1.9310768842697144,9.578810691833496,-0.7106937170028687,-3.2899999618530273,-2.0999999046325684,6.159999847412109,1.1988469362258911,8.49721622467041,-2.5699832439422607,95.4800033569336,-141.0500030517578,2.870000123977661
1511659045.970529,1.844932198524475,9.885103225708008,-0.8135887384414673,-6.369999885559082,6.369999885559082,4.269999980926514,-3.8812968730926514,13.007848739624023,-0.38525819778442383,20.3700008392334,-26.31999969482422,217.6300048828125
1511659046.0243495,2.0842230319976807,9.772636413574219,-1.179703712463379,-12.460000038146973,6.579999923706055,13.720000267028809,-8.181352615356445,19.17915916442871,-0.4331163763999939,65.66000366210938,31.639999389648438,252.35000610351562
1511659046.117679,2.0961875915527344,10.10285758972168,-0.1603248417377472,-19.46000099182129,2.1700000762939453,21.489999771118164,-19.006868362426758,8.248353958129883,3.1658174991607666,122.1500015258789,55.86000061035156,193.97000122070312
1511659046.2014592,2.261298179626465,9.978426933288574,-0.45943835377693176,-30.729999542236328,-0.9100000262260437,34.15999984741211,-16.135379791259766,5.8219451904296875,4.4867024421691895,-15.819999694824219,36.88999938964844,0.5600000023841858
1511659046.3034053,1.1533817052841187,14.599132537841797,1.7252867221832275,-2.380000114440918,7.909999847412109,116.34000396728516,0.08853759616613388,13.847759246826172,9.849209785461426,-89.87999725341797,24.71000099182129,-115.8499984741211
1511659046.4373555,1.8401463031768799,16.329204559326172,-3.56782603263855,37.45000076293945,33.810001373291016,308.1400146484375,-0.7609447836875916,10.291897773742676,0.30868515372276306,-25.270000457763672,45.220001220703125,-92.61000061035156
1511659046.4703302,-17.91570281982422,17.745805740356445,6.171309947967529,70.0,108.98999786376953,159.6699981689453,-2.158403158187866,10.524009704589844,-0.2010042816400528,2.380000114440918,17.219999313354492,-38.63999938964844
1511659046.5519931,0.8734114766120911,8.822651863098145,1.2586696147918701,-34.15999984741211,5.460000038146973,-97.51000213623047,-1.8521108627319336,9.332341194152832,-1.4596738815307617,6.300000190734863,13.230000495910645,-24.71000099182129
1511659046.6366851,7.011220932006836,15.41750717163086,-3.034207344055176,-36.88999938964844,-22.96000099182129,-239.47000122070312,-2.268476963043213,9.349091529846191,-1.2778129577636719,0.9100000262260437,-0.3499999940395355,-11.199999809265137
1511659046.7395349,10.660405158996582,17.085363388061523,-3.807116746902466,41.439998626708984,-71.12000274658203,-203.91000366210938,-2.4838385581970215,9.507023811340332,-1.1342384815216064,-12.039999961853027,-6.720000267028809,-11.0600004196167
1511659046.8323584,3.062922477722168,4.422094345092773,-0.9404128789901733,-105.0,-5.110000133514404,95.4800033569336,-2.591519355773926,10.413935661315918,-0.43790218234062195,-18.1299991607666,-2.7300000190734863,-20.719999313354492
1511659046.9491389,5.640084266662598,11.296918869018555,-1.974149227142334,23.520000457763672,-0.3499999940395355,158.75999450683594,0.7011220455169678,16.039663314819336,1.3926725387573242,-2.1700000762939453,-7.349999904632568,-59.92000198364258
1511659047.0663772,3.6204700469970703,10.464186668395996,-0.2895418703556061,6.369999885559082,-4.619999885559082,61.25,-3.350071430206299,15.455793380737305,-8.265104293823242,96.11000061035156,-102.69000244140625,-274.3999938964844
1511659047.1488976,1.9932924509048462,10.00953483581543,-0.3326142132282257,-1.6100000143051147,-0.2800000011920929,15.470000267028809,6.951397895812988,8.3871431350708,-3.675506830215454,1.9600000381469727,-95.19999694824219,-1.6100000143051147
1511659047.2711055,2.1464385986328125,8.947083473205566,-1.2562767267227173,-4.130000114440918,-2.380000114440918,12.180000305175781,1.6056413650512695,8.312962532043457,-1.8233959674835205,-18.899999618530273,-33.880001068115234,203.6300048828125
1511659047.3337836,2.3211207389831543,9.490273475646973,-0.5527617931365967,-4.760000228881836,-1.399999976158142,14.770000457763672,-4.077515602111816,13.854937553405762,-2.1799392700195312,23.170000076293945,33.810001373291016,244.22999572753906
1511659047.4084466,2.4503378868103027,9.358663558959961,-0.461831271648407,-7.490000247955322,5.320000171661377,14.90999984741211,-7.810451984405518,17.334226608276367,-4.6972784996032715,43.400001525878906,80.43000030517578,260.8900146484375
1511659047.4494696,3.022243022918701,9.428057670593262,-0.29911351203918457,-22.260000228881836,9.800000190734863,20.3700008392334,-19.588346481323242,10.952340126037598,-0.0023929080925881863,77.13999938964844,72.30999755859375,181.64999389648438
1511659047.5728083,2.7446656227111816,10.966697692871094,0.6317277550697327,-12.390000343322754,1.1200000047683716,34.5099983215332,9.526166915893555,-5.259612083435059,7.193081855773926,-101.98999786376953,-61.11000061035156,-123.9000015258789
1511659047.6062012,1.7659661769866943,13.878867149353027,-0.5001177787780762,10.359999656677246,3.569999933242798,111.79000091552734,-3.6731138229370117,17.32944107055664,7.3605852127075195,9.449999809265137,21.6299991607666,-200.33999633789062
1511659047.682548,-1.8521108627319336,-10.196181297302246,-1.0768086910247803,16.030000686645508,31.5,301.2099914550781,-1.4740313291549683,10.8685884475708,0.5838695764541626,20.93000030517578,31.010000228881836,-80.56999969482422
1511659047.8304236,-4.187589168548584,8.595325469970703,1.9191123247146606,27.3700008392334,72.16999816894531,-42.630001068115234,-2.136866807937622,10.344541549682617,-0.7944455146789551,3.009999990463257,6.369999885559082,-29.049999237060547
1511659047.9025226,0.35654330253601074,9.55009651184082,-0.2512553632259369,-4.340000152587891,-6.369999885559082,-259.4200134277344,-2.577162027359009,9.609918594360352,-0.825553297996521,-12.25,7.0,-22.1200008392334
1511659047.9434168,21.258596420288086,6.027735710144043,-0.17468228936195374,88.4800033569336,-31.149999618530273,-111.86000061035156,-2.3929080963134766,9.502238273620605,-0.363722026348114,-7.0,7.559999942779541,-16.100000381469727
1511659047.9942195,12.730271339416504,15.041820526123047,-1.2419192790985107,79.44999694824219,-40.880001068115234,-259.7699890136719,-2.6465563774108887,9.169623374938965,-0.9475916028022766,-1.1200000047683716,-1.1200000047683716,-13.300000190734863
1511659048.1144013,23.488786697387695,4.99160623550415,3.486467123031616,25.34000015258789,-45.43000030517578,-155.75,-2.4838385581970215,9.521381378173828,-0.9428057670593262,-12.180000305175781,-5.740000247955322,-16.799999237060547
1511659048.1697416,-7.104544162750244,12.20622444152832,-3.814295530319214,-57.26000213623047,1.2599999904632568,94.70999908447266,-2.703986167907715,12.632162094116211,-0.16750356554985046,-17.149999618530273,1.190000057220459,-37.099998474121094
1511659048.2340791,2.866703987121582,10.320612907409668,-2.6728782653808594,38.5,-31.010000228881836,166.6699981689453,-1.957398772239685,14.048763275146484,0.9140908718109131,26.31999969482422,-16.3799991607666,-132.16000366210938
1511659048.3314264,2.2373690605163574,10.239253997802734,-0.6604426503181458,12.8100004196167,-12.390000343322754,56.279998779296875,-6.156952381134033,19.588346481323242,-6.582890033721924,40.25,-51.869998931884766,-347.1300048828125
1511659048.4111483,2.045936346054077,9.901853561401367,-0.24407662451267242,13.020000457763672,-1.4700000286102295,14.489999771118164,-10.507259368896484,22.90730857849121,-1.689393162727356,-3.3600001335144043,-71.12000274658203,-130.5500030517578
1511659048.491155,2.1272952556610107,9.406521797180176,-1.3256710767745972,3.8499999046325684,-10.430000305175781,20.15999984741211,1.4094228744506836,8.05452823638916,-2.1751534938812256,6.579999923706055,-93.87000274658203,164.00999450683594
1511659048.5437086,2.648949146270752,9.229446411132812,-0.9930568337440491,-1.6100000143051147,-1.190000057220459,15.960000038146973,-2.261298179626465,11.325634002685547,-1.1509888172149658,59.01000213623047,40.11000061035156,288.75
1511659048.643793,2.4264087677001953,9.205517768859863,-1.2203831672668457,-13.930000305175781,10.569999694824219,14.069999694824219,-8.262711524963379,19.15044403076172,-4.137338161468506,54.11000061035156,80.29000091552734,295.8900146484375
1511659048.7089086,3.2830698490142822,9.590775489807129,0.007178724277764559,-25.969999313354492,9.730000495910645,19.040000915527344,-17.891773223876953,15.58261775970459,-4.292877197265625,75.25,73.56999969482422,262.2900085449219
1511659048.8204882,1.0863802433013916,16.446456909179688,-0.2895418703556061,18.1299991607666,9.59000015258789,193.69000244140625,-28.499534606933594,-1.3807079792022705,7.587911605834961,20.3700008392334,18.549999237060547,62.720001220703125
1511659048.9801044,8.253140449523926,25.96544647216797,-3.661149263381958,50.81999969482422,39.54999923706055,374.3600158691406,1.1844894886016846,19.784564971923828,18.944652557373047,-69.09000396728516,83.58000183105469,-164.63999938964844
1511659049.0380201,-12.912132263183594,7.3605852127075195,-1.682214379310608,-14.980000495910645,81.19999694824219,-27.440000534057617,-3.5319323539733887,11.253847122192383,1.1246668100357056,0.3499999940395355,63.70000076293945,-130.89999389648438
1511659049.0874615,-0.29911351203918457,7.348620891571045,-0.059822700917720795,28.489999771118164,35.349998474121094,-233.4499969482422,-1.8616825342178345,11.002591133117676,-0.03350071236491203,17.5,22.81999969482422,-48.720001220703125
1511659049.2639205,5.290719985961914,13.266282081604004,1.1079164743423462,51.72999954223633,15.819999694824219,-273.70001220703125,-2.1679747104644775,9.246196746826172,-1.847325086593628,8.75,12.460000038146973,-26.600000381469727
1511659049.3108604,6.81500244140625,16.41295623779297,-3.2902486324310303,5.53000020980835,-86.0999984741211,-301.9800109863281,-2.8212387561798096,8.813080787658691,-1.5864980220794678,2.7300000190734863,1.6100000143051147,-17.920000076293945
1511659049.411691,-16.305274963378906,1.2490980625152588,-41.69881820678711,55.439998626708984,-102.2699966430664,-233.10000610351562,-2.936098337173462,9.56684684753418,-0.7441943883895874,-19.389999389648438,-6.579999923706055,-15.75
1511659049.4854653,3.6013267040252686,19.21265983581543,11.012163162231445,-47.11000061035156,50.04999923706055,12.390000343322754,-2.390515089035034,11.643890380859375,-0.5623334050178528,-10.989999771118164,-7.909999847412109,-48.93000030517578
1511659049.6191359,1.6606782674789429,11.031306266784668,-0.35893622040748596,56.70000076293945,19.809999465942383,187.11000061035156,-0.040679436177015305,17.020755767822266,2.2158329486846924,51.099998474121094,-25.479999542236328,-174.3000030517578
1511659049.686615,2.3833365440368652,10.117215156555176,-0.3541503846645355,13.440000534057617,-17.780000686645508,93.66000366210938,11.488351821899414,6.927468776702881,-4.278519630432129,-33.880001068115234,-57.61000061035156,-374.989990234375
1511659049.7424188,2.172760486602783,9.298840522766113,-1.4883887767791748,-3.430000066757202,-4.829999923706055,19.600000381469727,-1.5482115745544434,6.963362693786621,-2.706378936767578,3.0799999237060547,-118.93000030517578,14.90999984741211
1511659049.8194642,2.5628044605255127,9.775029182434082,-0.5360113978385925,-14.699999809265137,2.799999952316284,20.299999237060547,-4.814530849456787,11.885574340820312,-0.8662327527999878,84.3499984741211,18.690000534057617,263.4100036621094
1511659049.8894854,2.3498356342315674,9.183980941772461,-1.3160994052886963,-17.639999389648438,6.929999828338623,15.890000343322754,-10.387614250183105,18.032955169677734,-3.6778998374938965,66.91999816894531,53.619998931884766,287.9100036621094
1511659050.0159717,2.91695499420166,9.597954750061035,-0.46661707758903503,-25.969999313354492,11.550000190734863,20.299999237060547,-20.289466857910156,12.220582008361816,1.8880045413970947,112.55999755859375,71.12000274658203,206.0800018310547
1511659050.0370135,2.550840139389038,11.335206031799316,0.18664683401584625,-2.7300000190734863,1.399999976158142,47.31999969482422,-33.749576568603516,54.649234771728516,11.031306266784668,-66.56999969482422,-191.52000427246094,-84.20999908447266
1511659050.1512568,1.682214379310608,14.627846717834473,0.2943277060985565,15.539999961853027,5.389999866485596,145.25,-4.702064514160156,18.226781845092773,7.736271858215332,21.559999465942383,-22.190000534057617,-212.52000427246094
1511659050.248726,-1.2036327123641968,18.2315673828125,-4.319199085235596,51.52000045776367,43.540000915527344,357.4200134277344,-2.718343496322632,10.0885009765625,-0.952377438545227,23.100000381469727,33.11000061035156,-88.69000244140625
1511659050.3147867,-1.0241646766662598,7.994706153869629,0.5336185097694397,154.27999877929688,103.80999755859375,-39.47999954223633,-2.3163349628448486,10.746550559997559,-0.021536173298954964,17.71000099182129,9.59000015258789,-21.0
1511659050.4426727,3.5750045776367188,11.390242576599121,-0.10528795421123505,33.040000915527344,12.600000381469727,-193.1999969482422,-2.2373690605163574,9.014084815979004,-1.6463208198547363,12.319999694824219,8.050000190734863,-17.850000381469727
1511659050.507627,8.085636138916016,14.733135223388672,-2.5245180130004883,-12.390000343322754,-12.109999656677246,-270.54998779296875,-2.54366135597229,9.308412551879883,-1.4453164339065552,4.199999809265137,-1.75,-13.09000015258789
1511659050.6352885,14.168408393859863,13.510358810424805,-2.2014753818511963,-19.18000030517578,-64.4000015258789,-256.6199951171875,-2.5675904750823975,9.078693389892578,-1.7348583936691284,-14.350000381469727,-7.769999980926514,-10.989999771118164
1511659050.686016,20.177001953125,6.300527095794678,2.0291860103607178,54.25,-97.16000366210938,-222.32000732421875,-2.584340810775757,9.545310020446777,-0.9284483194351196,-21.90999984741211,-7.769999980926514,-16.940000534057617
1511659050.7746122,-5.802802085876465,12.627375602722168,2.270869731903076,33.25,-46.54999923706055,-130.33999633789062,-2.8619179725646973,10.882946014404297,-0.32782840728759766,-25.690000534057617,-4.199999809265137,-34.720001220703125
1511659050.8254476,1.1342384815216064,10.914053916931152,0.3924369215965271,-52.9900016784668,54.810001373291016,101.36000061035156,-1.6750357151031494,13.579753875732422,0.6628355383872986,11.619999885559082,-20.15999984741211,-117.52999877929688
1511659050.9543157,2.2947988510131836,10.552724838256836,-0.8423036336898804,26.809999465942383,-15.190000534057617,53.689998626708984,-1.268241286277771,20.291860580444336,-6.295741081237793,133.83999633789062,-92.33000183105469,-345.30999755859375
1511659051.0372272,2.354621648788452,10.325398445129395,-0.7896596789360046,10.920000076293945,-1.5399999618530273,16.030000686645508,5.305077075958252,7.755414962768555,2.9193477630615234,66.29000091552734,-116.9000015258789,-220.5
1511659051.1102464,2.395301103591919,9.57402515411377,-0.5192610621452332,1.4700000286102295,-7.490000247955322,15.960000038146973,3.1586387157440186,6.386671543121338,-2.354621648788452,-1.4700000286102295,-104.09000396728516,109.55000305175781
1511659051.1763468,2.270869731903076,9.246196746826172,-1.1462029218673706,1.8200000524520874,1.9600000381469727,12.600000381469727,-1.6558923721313477,10.256004333496094,-0.48815324902534485,45.9900016784668,41.15999984741211,285.8800048828125
1511659051.2590032,2.4479448795318604,9.408914566040039,-1.1127022504806519,-12.390000343322754,10.5,10.289999961853027,-7.094972610473633,17.853487014770508,-3.309391975402832,74.83000183105469,58.17000198364258,297.42999267578125
1511659051.3029442,2.684842824935913,9.72238540649414,-0.6748000979423523,-25.059999465942383,7.490000247955322,19.530000686645508,-17.829557418823242,16.247846603393555,-3.2304258346557617,88.76000213623047,98.91000366210938,266.0
1511659051.3736436,2.7015931606292725,10.859017372131348,-0.746587336063385,-27.440000534057617,0.0,39.27000045776367,-27.863021850585938,-1.7516087293624878,9.765458106994629,87.70999908447266,20.790000915527344,83.16000366210938
1511659051.4972627,1.9430413246154785,14.24498176574707,0.8183745741844177,13.300000190734863,6.440000057220459,141.39999389648438,-1.7970739603042603,10.031070709228516,3.7999379634857178,-198.94000244140625,-26.110000610351562,-129.77999877929688
1511659051.602671,-5.599404811859131,15.159072875976562,2.634591817855835,183.47000122070312,71.26000213623047,90.37000274658203,-11.15573787689209,9.329948425292969,-7.470659255981445,-54.529998779296875,47.95000076293945,-143.5
1511659051.6471539,-0.588655412197113,6.984898567199707,2.0052568912506104,50.75,33.67000198364258,-142.02999877929688,-2.333085298538208,9.023656845092773,-0.8758043646812439,5.809999942779541,32.20000076293945,-59.290000915527344
1511659051.8170881,1.1677391529083252,10.023892402648926,-0.27518442273139954,8.1899995803833,-32.83000183105469,-279.510009765625,-2.6441633701324463,8.999727249145508,-1.2323477268218994,5.670000076293945,14.279999732971191,-24.5
1511659051.8509889,7.310334205627441,15.68551254272461,-2.2947988510131836,-27.440000534057617,-107.94000244140625,-294.07000732421875,-2.6896286010742188,9.01887035369873,-1.3424214124679565,2.5899999141693115,7.210000038146973,-14.630000114440918
1511659051.9058638,12.94324016571045,17.542409896850586,-7.40365743637085,-3.0799999237060547,-92.05000305175781,-268.5899963378906,-2.6728782653808594,9.509416580200195,-1.0169858932495117,3.1500000953674316,-1.8899999856948853,-7.840000152587891
1511659051.966634,29.35858917236328,-3.7975451946258545,3.5367181301116943,57.470001220703125,-13.649999618530273,-94.5,-2.8906328678131104,10.153108596801758,-0.5719050168991089,-6.230000019073486,-7.210000038146973,-8.539999961853027
1511659052.1225648,2.943276882171631,15.307433128356934,14.556059837341309,-110.31999969482422,-54.25,150.85000610351562,-2.452730894088745,12.354584693908691,0.44747382402420044,-14.350000381469727,-2.940000057220459,-21.139999389648438
1511659052.169258,1.8042527437210083,9.203125,-2.318727970123291,-48.369998931884766,-43.540000915527344,118.51000213623047,2.5819478034973145,16.245452880859375,-1.5721405744552612,2.6600000858306885,-14.489999771118164,-70.9800033569336
1511659052.2119784,1.749215841293335,10.114822387695312,-0.3230426013469696,-5.949999809265137,-9.380000114440918,33.880001068115234,-2.663306713104248,19.9664249420166,-4.728386402130127,73.36000061035156,-41.86000061035156,-252.0
1511659052.2802737,1.7922881841659546,9.916211128234863,-1.462066888809204,12.739999771118164,-10.989999771118164,23.940000534057617,6.2981343269348145,7.733879089355469,-1.3854937553405762,1.6800000667572021,-116.76000213623047,-405.92999267578125
1511659052.3974848,3.280677080154419,9.334734916687012,-0.8494823575019836,-11.40999984741211,-6.019999980926514,26.600000381469727,-1.4189945459365845,9.315590858459473,-1.3615647554397583,-20.510000228881836,-142.94000244140625,89.87999725341797
1511659052.4550953,2.873882532119751,9.36823558807373,-0.7800880670547485,-12.319999694824219,8.1899995803833,16.59000015258789,-7.738664627075195,17.42276382446289,-0.904519259929657,11.480000495910645,-48.86000061035156,308.2099914550781
1511659052.4840627,2.703986167907715,9.664956092834473,-0.5934411883354187,-21.0,13.440000534057617,10.989999771118164,-14.623061180114746,16.74557113647461,-4.039228916168213,72.23999786376953,26.950000762939453,285.5299987792969
1511659052.633574,2.3498356342315674,13.060492515563965,0.21536172926425934,-12.319999694824219,4.900000095367432,24.149999618530273,-27.52562141418457,4.048800468444824,6.348385334014893,79.7300033569336,103.18000030517578,287.8399963378906
1511659052.736086,0.44268798828125,21.081520080566406,-2.9839563369750977,8.050000190734863,8.050000190734863,82.5999984741211,-1.9215052127838135,11.452458381652832,3.146674156188965,120.33000183105469,45.56999969482422,133.55999755859375
1511659052.8265812,-6.637927055358887,10.220110893249512,-0.009571632370352745,39.900001525878906,46.83000183105469,390.32000732421875,-2.579555034637451,8.848974227905273,-4.125373363494873,-125.30000305175781,7.349999904632568,-96.94999694824219
1511659052.9472964,-0.24646952748298645,8.34167766571045,-0.047858163714408875,-38.56999969482422,88.9000015258789,-14.90999984741211,-2.488624334335327,10.323005676269531,-0.39961564540863037,-0.3499999940395355,24.360000610351562,-50.540000915527344
1511659053.0409544,5.975091457366943,16.484743118286133,3.0174570083618164,64.68000030517578,34.439998626708984,-320.3900146484375,-2.438373327255249,9.664956092834473,-1.2179901599884033,4.340000152587891,13.859999656677246,-24.219999313354492
1511659053.0853024,10.954732894897461,21.58163833618164,-5.489331245422363,62.02000045776367,-42.84000015258789,-296.79998779296875,-2.6178414821624756,8.908797264099121,-0.9093050956726074,-3.7799999713897705,5.740000247955322,-14.84000015258789
1511659053.166702,33.85247039794922,0.2416837215423584,2.8978116512298584,90.72000122070312,-74.41000366210938,-163.10000610351562,-2.4000868797302246,9.406521797180176,-1.3448143005371094,-10.430000305175781,-6.300000190734863,-11.760000228881836
1511659053.315123,-11.897539138793945,20.133928298950195,7.006434917449951,-124.66999816894531,-7.840000152587891,99.54000091552734,-2.706378936767578,10.535974502563477,-0.4115802049636841,-15.050000190734863,-0.07000000029802322,-26.389999389648438
1511659053.339407,3.8406174182891846,10.947554588317871,-2.270869731903076,55.22999954223633,-13.09000015258789,172.6199951171875,-0.7776951193809509,14.211481094360352,-0.29911351203918457,16.030000686645508,-13.649999618530273,-103.73999786376953
1511659053.45879,1.6295703649520874,10.031070709228516,-0.30629223585128784,9.800000190734863,-2.309999942779541,11.760000228881836,-0.009571632370352745,16.4249210357666,-3.7137932777404785,99.68000030517578,-79.7300033569336,-313.25
1511659053.5413666,1.809038519859314,9.284482955932617,-1.4142086505889893,8.680000305175781,-9.800000190734863,21.90999984741211,6.240704536437988,7.808059215545654,-2.2254045009613037,65.30999755859375,-102.19999694824219,-368.8299865722656
1511659053.6043108,2.395301103591919,9.681706428527832,-0.9786993861198425,-6.300000190734863,-2.940000057220459,27.790000915527344,-1.9334697723388672,11.31127643585205,-0.5168681740760803,25.690000534057617,-44.310001373291016,82.25
1511659053.6580403,2.7374868392944336,9.320377349853516,-1.2036327123641968,-14.350000381469727,5.740000247955322,21.280000686645508,-7.520910263061523,15.046606063842773,-3.4051082134246826,52.56999969482422,39.7599983215332,304.7099914550781
1511659053.8119037,2.4503378868103027,10.28471851348877,-0.2727915346622467,-27.790000915527344,6.440000057220459,22.889999389648438,-28.609609603881836,0.5025107264518738,9.913818359375,124.52999877929688,22.889999389648438,132.3699951171875
1511659053.884645,2.184725046157837,11.495530128479004,-0.47858160734176636,-3.7100000381469727,6.300000190734863,62.09000015258789,-1.239526391029358,17.599838256835938,5.479759693145752,-159.4600067138672,17.850000381469727,-87.70999908447266
1511659053.950088,0.6077986359596252,16.166486740112305,-0.4714028835296631,12.670000076293945,14.350000381469727,183.88999938964844,-7.188295841217041,10.215324401855469,-4.46277379989624,-38.290000915527344,78.4000015258789,-153.02000427246094
1511659054.0430465,7.269654750823975,20.038211822509766,-1.6774286031723022,25.6200008392334,21.979999542236328,359.239990234375,-2.5819478034973145,9.791779518127441,-0.9021263718605042,3.569999933242798,26.530000686645508,-53.47999954223633
1511659054.144634,-3.5797905921936035,15.24282455444336,-4.510631561279297,2.6600000858306885,40.25,-22.329999923706055,-3.1514599323272705,9.712814331054688,-0.6915504336357117,-2.870000123977661,0.14000000059604645,-14.420000076293945
1511659054.2660298,-0.8853759765625,8.15981674194336,-0.2416837215423584,25.200000762939453,65.5199966430664,-233.72999572753906,-2.373764753341675,8.918368339538574,-1.5290682315826416,2.7300000190734863,0.21000000834465027,-12.039999961853027
1511659054.328953,5.116037368774414,17.149972915649414,-1.6271774768829346,-2.940000057220459,-52.779998779296875,-282.239990234375,-2.5412683486938477,8.810688018798828,-1.3926725387573242,4.409999847412109,-5.179999828338623,-13.649999618530273
1511659054.4285593,16.61635398864746,15.58979606628418,-3.7784018516540527,26.110000610351562,-76.09000396728516,-260.04998779296875,-2.8212387561798096,9.294054985046387,-1.1605603694915771,-18.6200008392334,-9.520000457763672,-15.819999694824219
1511659054.481791,31.832857131958008,-0.8159816861152649,4.182803153991699,57.540000915527344,12.319999694824219,-75.04000091552734,-2.735093832015991,10.416329383850098,-0.011964540928602219,-16.799999237060547,-2.940000057220459,-29.049999237060547
1511659054.5559509,8.006670951843262,19.294017791748047,12.680020332336426,-43.959999084472656,-46.40999984741211,157.36000061035156,-1.679821491241455,13.539073944091797,0.05264397710561752,18.40999984741211,-9.449999809265137,-92.47000122070312
1511659054.6237552,2.0626866817474365,11.012163162231445,-1.4381377696990967,-18.200000762939453,-51.2400016784668,131.9499969482422,2.2804415225982666,16.755142211914062,-1.0887731313705444,77.9800033569336,-60.20000076293945,-265.8600158691406
1511659054.725153,2.0220072269439697,9.602740287780762,-0.600619912147522,-10.359999656677246,-8.1899995803833,39.83000183105469,-2.852346420288086,18.46367835998535,-4.938962459564209,-59.220001220703125,-99.95999908447266,-420.6300048828125
1511659054.786546,1.907147765159607,9.614705085754395,-1.1581674814224243,-4.900000095367432,-2.240000009536743,21.6299991607666,7.319905757904053,9.090658187866211,-2.9695990085601807,-56.06999969482422,-103.87999725341797,112.0
1511659054.924538,2.811666965484619,8.92554759979248,-1.0480937957763672,-18.969999313354492,0.14000000059604645,22.190000534057617,-1.0696299076080322,9.490273475646973,-0.667621374130249,19.670000076293945,-43.470001220703125,325.6400146484375
1511659054.9801755,2.4288017749786377,9.638633728027344,-0.27757734060287476,-17.920000076293945,7.769999980926514,13.510000228881836,-6.216775417327881,15.376827239990234,0.9188767075538635,93.16999816894531,-0.699999988079071,315.0
1511659055.0639658,1.387886643409729,9.746315002441406,-0.9093050956726074,-25.1299991607666,13.930000305175781,18.760000228881836,-12.457479476928711,20.121963500976562,-3.8334388732910156,92.81999969482422,63.0,309.4700012207031
1511659055.1614532,2.0220072269439697,13.912367820739746,0.7896596789360046,15.190000534057617,0.5600000023841858,96.45999908447266,-26.082698822021484,1.7205009460449219,6.67621374130249,91.62999725341797,103.31999969482422,140.91000366210938
1511659055.2533925,-0.9284483194351196,16.92025375366211,-4.185196399688721,14.279999732971191,25.6200008392334,256.6199951171875,-6.345992088317871,6.700142860412598,-13.393106460571289,-9.869999885559082,30.170000076293945,-164.4300079345703
1511659055.3892674,4.431665897369385,19.236587524414062,-2.68245005607605,11.829999923706055,50.2599983215332,380.5899963378906,-3.436216115951538,11.174880981445312,0.6101915836334229,-5.740000247955322,25.549999237060547,-72.37999725341797
1511659055.4719183,0.021536173298954964,7.784130096435547,0.964341938495636,21.559999465942383,27.3700008392334,-251.64999389648438,-2.6944146156311035,10.248825073242188,0.29672059416770935,-4.550000190734863,14.630000114440918,-28.280000686645508
1511659055.586391,5.26918363571167,15.462971687316895,2.7590229511260986,56.0,4.059999942779541,-305.9700012207031,-2.775773286819458,9.0284423828125,-0.8829830884933472,2.7300000190734863,8.890000343322754,-18.969999313354492
1511659055.675288,7.676449298858643,20.01667594909668,-4.1277666091918945,-0.9800000190734863,-70.84000396728516,-283.2200012207031,-2.9600272178649902,8.93272590637207,-1.1509888172149658,7.840000152587891,1.0499999523162842,-14.210000038146973
1511659055.7237155,21.682140350341797,7.779344081878662,0.4450809061527252,107.30999755859375,-89.45999908447266,-199.14999389648438,-2.950455665588379,8.927940368652344,-1.3017419576644897,-16.450000762939453,-5.110000133514404,-13.720000267028809
1511659055.7532425,22.12004280090332,3.87172532081604,1.426173210144043,-0.14000000059604645,-33.810001373291016,13.930000305175781,-2.9743847846984863,10.220110893249512,-0.24407662451267242,-21.0,-5.320000171661377,-20.579999923706055
1511659055.8098407,0.7322298884391785,17.875022888183594,10.863802909851074,3.9200000762939453,-33.18000030517578,190.6800079345703,-2.340264081954956,12.081792831420898,0.2943277060985565,14.0,-4.059999942779541,-56.06999969482422
1511659055.9205854,3.2782840728759766,11.41417121887207,-0.7226582169532776,-2.940000057220459,-16.450000762939453,80.22000122070312,-0.39722275733947754,14.33112621307373,0.09571632742881775,39.20000076293945,-22.469999313354492,-182.35000610351562
1511659055.9972887,2.227797508239746,10.61733341217041,0.33740004897117615,-1.6100000143051147,0.0,18.6200008392334,-9.006906509399414,16.953754425048828,-4.312020301818848,-14.420000076293945,-86.16999816894531,-392.489990234375
1511659056.0555558,2.304370403289795,9.456772804260254,-0.9691277742385864,0.49000000953674316,-3.7799999713897705,18.969999313354492,-1.3974583148956299,10.37325668334961,-10.279932975769043,1.9600000381469727,-34.86000061035156,-10.710000038146973
1511659056.1343298,2.529303789138794,9.705635070800781,-0.5336185097694397,-7.840000152587891,-4.059999942779541,20.15999984741211,-0.7729093432426453,7.267261981964111,-0.9356270432472229,30.729999542236328,-69.93000030517578,282.6600036621094
1511659056.2178092,2.3929080963134766,9.327555656433105,-0.8829830884933472,-8.819999694824219,6.300000190734863,18.899999618530273,-9.935354232788086,18.822614669799805,-4.917426109313965,74.12999725341797,-23.450000762939453,307.510009765625
1511659056.2829194,2.833203077316284,9.698456764221191,-0.3613291084766388,-20.579999923706055,7.630000114440918,20.579999923706055,-16.793428421020508,11.84250259399414,1.1581674814224243,68.38999938964844,31.850000381469727,289.94000244140625
1511659056.3998766,3.1514599323272705,10.579046249389648,0.3134709596633911,-14.489999771118164,4.059999942779541,28.630001068115234,-22.474193572998047,1.4381377696990967,6.089951038360596,121.02999877929688,63.13999938964844,228.75999450683594
1511659056.5708892,1.9621846675872803,13.88843822479248,0.3206496834754944,17.219999313354492,5.53000020980835,96.73999786376953,0.4020085632801056,15.819515228271484,16.278953552246094,26.739999771118164,6.300000190734863,22.329999923706055
1511659056.6962252,-5.192610740661621,13.553431510925293,-2.340264081954956,31.010000228881836,37.029998779296875,291.8999938964844,-2.2589051723480225,10.217717170715332,-0.34697166085243225,-96.45999908447266,95.9000015258789,-153.3000030517578
1511659056.75981,-4.216303825378418,6.975327014923096,0.22971917688846588,115.70999908447266,61.810001373291016,357.07000732421875,-2.5101606845855713,10.842267036437988,-0.028714897111058235,-17.989999771118164,70.3499984741211,-140.49000549316406
1511659056.7980037,-0.14357449114322662,8.724542617797852,0.3517574965953827,34.22999954223633,86.59000396728516,1.6800000667572021,-2.2230117321014404,8.724542617797852,-1.581712245941162,4.760000228881836,22.049999237060547,-49.0
1511659056.8534145,6.448887348175049,15.116000175476074,-0.461831271648407,9.239999771118164,17.43000030517578,-234.22000122070312,-2.5675904750823975,9.420879364013672,-1.1246668100357056,12.109999656677246,14.069999694824219,-23.239999771118164
1511659056.8984427,8.327320098876953,19.774991989135742,-4.335949420928955,31.010000228881836,-14.770000457763672,-283.7799987792969,-2.9624202251434326,9.432844161987305,-0.9691277742385864,-9.9399995803833,-2.5199999809265137,-10.359999656677246
1511659056.9748168,23.342819213867188,10.186610221862793,-1.2562767267227173,6.440000057220459,-102.76000213623047,-285.95001220703125,-2.684842824935913,9.406521797180176,-1.1366313695907593,-12.390000343322754,-7.699999809265137,-12.109999656677246
1511659057.0351877,0.15553902089595795,55.867225646972656,0.06460852175951004,-55.720001220703125,131.6699981689453,68.25,-2.8643109798431396,10.107644081115723,-0.8925547003746033,-16.799999237060547,-1.1200000047683716,-25.40999984741211
1511659057.1564684,-0.9978426694869995,15.369648933410645,8.839402198791504,16.3799991607666,32.689998626708984,187.1800079345703,-1.5458186864852905,13.797508239746094,0.9404128789901733,14.420000076293945,-12.880000114440918,-86.23999786376953
1511659057.2737906,5.508474349975586,9.964069366455078,-0.7298369407653809,18.969999313354492,-17.010000228881836,79.30999755859375,2.0818300247192383,15.180608749389648,-1.7252867221832275,83.79000091552734,-64.88999938964844,-269.7799987792969
1511659057.3188803,2.3641932010650635,10.303862571716309,0.03110780566930771,12.180000305175781,-4.059999942779541,19.18000030517578,-5.826731204986572,20.19135856628418,-3.266319513320923,55.790000915527344,-111.30000305175781,-357.07000732421875
1511659057.3515315,2.156010150909424,8.77718734741211,-1.8784328699111938,7.980000019073486,-3.7799999713897705,13.649999618530273,5.8554463386535645,7.791308879852295,-1.5027462244033813,3.8499999046325684,-139.64999389648438,94.91999816894531
1511659057.4332867,2.536482572555542,9.624276161193848,-0.509689450263977,-4.550000190734863,-1.4700000286102295,14.630000114440918,-1.1916682720184326,9.12415885925293,-0.5766908526420593,8.399999618530273,-49.97999954223633,291.2699890136719
1511659057.525449,2.6298060417175293,9.260554313659668,-0.7035149931907654,-19.530000686645508,8.329999923706055,16.59000015258789,-8.119136810302734,15.862587928771973,2.086615800857544,65.0999984741211,16.799999237060547,278.6700134277344
1511659057.5782716,2.7997024059295654,9.674527168273926,-0.20339718461036682,-25.690000534057617,12.949999809265137,17.290000915527344,-11.43092155456543,17.209794998168945,-4.137338161468506,67.62000274658203,86.37999725341797,267.6100158691406
1511659057.6798847,2.797309637069702,10.411542892456055,0.028714897111058235,-21.770000457763672,3.3600001335144043,26.25,-18.286603927612305,6.020556926727295,2.495803117752075,71.61000061035156,113.95999908447266,173.74000549316406
1511659057.781753,2.598698139190674,12.275618553161621,0.8303391337394714,6.440000057220459,-0.49000000953674316,72.80000305175781,21.09348487854004,40.12667465209961,-14.278482437133789,-68.73999786376953,-138.60000610351562,-81.69000244140625
1511659057.8318605,2.038757801055908,14.979604721069336,-1.2921704053878784,18.34000015258789,8.1899995803833,186.1999969482422,-3.716186285018921,18.157386779785156,9.595561027526855,7.699999809265137,-24.639999389648438,-186.05999755859375
1511659057.9052958,9.294054985046387,18.825008392333984,-3.7401154041290283,-22.190000534057617,35.90999984741211,358.8900146484375,-5.333792209625244,10.076536178588867,-1.4572809934616089,21.770000457763672,38.36000061035156,-103.73999786376953
1511659057.960019,-12.423978805541992,7.382121562957764,-2.615448474884033,54.880001068115234,68.94999694824219,-54.95000076293945,-2.409658432006836,10.449830055236816,0.02632198855280876,-3.2200000286102295,13.859999656677246,-34.86000061035156
1511659058.1647396,0.7178724408149719,8.9231538772583,0.4737958014011383,54.25,24.149999618530273,-256.1300048828125,-2.445552110671997,9.143301963806152,-1.0241646766662598,4.480000019073486,9.449999809265137,-20.229999542236328
1511659058.2021458,7.470659255981445,16.470386505126953,-3.259140729904175,-7.210000038146973,-52.56999969482422,-262.1499938964844,-2.577162027359009,9.11458683013916,-1.1150951385498047,7.420000076293945,3.430000066757202,-12.739999771118164
1511659058.281274,14.338305473327637,12.964776039123535,-1.6654640436172485,51.79999923706055,-85.95999908447266,-237.44000244140625,-2.6728782653808594,9.351485252380371,-0.9882710576057434,-2.450000047683716,-4.130000114440918,-8.260000228881836
1511659058.3662522,23.931474685668945,0.5982270240783691,2.249333620071411,63.84000015258789,-28.700000762939453,-43.400001525878906,-2.8260245323181152,10.928411483764648,0.1698964685201645,-16.729999542236328,-0.21000000834465027,-33.67000198364258
1511659058.4721324,4.544132232666016,16.372276306152344,12.227760314941406,-37.52000045776367,-51.65999984741211,148.82000732421875,-1.4405306577682495,13.460107803344727,0.1411815732717514,20.3700008392334,-13.369999885559082,-102.19999694824219
1511659058.570269,2.888240098953247,10.177038192749023,-2.5245180130004883,-12.390000343322754,-49.630001068115234,112.3499984741211,1.4285660982131958,14.828851699829102,-0.6580497026443481,103.45999908447266,-66.22000122070312,-277.54998779296875
1511659058.6158426,2.2947988510131836,10.062178611755371,-0.5288326740264893,-7.630000114440918,-8.260000228881836,36.61000061035156,-1.876039981842041,17.401227951049805,-2.735093832015991,59.08000183105469,-103.73999786376953,-409.6400146484375
1511659058.7231658,2.227797508239746,9.648205757141113,-0.8542681932449341,1.8200000524520874,-1.2599999904632568,17.639999389648438,7.583125591278076,8.523538589477539,-2.6441633701324463,-11.0600004196167,-82.80999755859375,166.52999877929688
1511659058.8075857,2.1201164722442627,9.298840522766113,-1.0002355575561523,-19.950000762939453,5.880000114440918,21.280000686645508,-1.6152129173278809,10.18182373046875,0.4833674430847168,-20.510000228881836,-43.400001525878906,340.4800109863281
1511659058.8888981,2.057900905609131,9.54052448272705,-0.9739136099815369,-25.270000457763672,14.069999694824219,17.149999618530273,-13.831008911132812,19.181550979614258,-3.3835721015930176,32.20000076293945,42.4900016784668,295.04998779296875
1511659058.990881,3.3620357513427734,9.741528511047363,0.6508709788322449,-24.920000076293945,10.430000305175781,29.399999618530273,-22.823556900024414,4.2330546379089355,4.91264009475708,44.939998626708984,69.16000366210938,289.6600036621094
1511659059.0735462,3.0653152465820312,12.249296188354492,0.6054057478904724,13.369999885559082,-1.190000057220459,74.05999755859375,2.4479448795318604,11.981290817260742,-1.9382555484771729,92.68000030517578,55.09000015258789,152.74000549316406
1511659059.1628385,0.746587336063385,16.054019927978516,-2.148831367492676,9.9399995803833,17.360000610351562,214.89999389648438,-2.7422726154327393,6.680999279022217,-10.813551902770996,-72.37999725341797,-64.19000244140625,-107.16999816894531
1511659059.2434123,9.906639099121094,18.53067970275879,-0.8303391337394714,10.359999656677246,22.049999237060547,394.8699951171875,-2.4048726558685303,11.246667861938477,0.3421858549118042,37.310001373291016,22.049999237060547,-178.63999938964844
1511659059.3079455,-8.743685722351074,5.089715480804443,-0.9428057670593262,23.940000534057617,67.83000183105469,-29.889999389648438,-2.7159507274627686,9.92099666595459,-0.8159816861152649,2.0299999713897705,18.690000534057617,-73.43000030517578
1511659059.355165,0.6173703074455261,6.269419193267822,0.8829830884933472,38.63999938964844,17.43000030517578,-247.10000610351562,-2.500588893890381,9.475915908813477,-0.181861013174057,-10.359999656677246,6.720000267028809,-26.31999969482422
1511659059.4767914,6.51110315322876,13.347640991210938,1.2778129577636719,72.16999816894531,3.7799999713897705,-283.6400146484375,-2.4431591033935547,9.083478927612305,-0.952377438545227,1.0499999523162842,11.480000495910645,-16.450000762939453
1511659059.5578434,9.315590858459473,16.992040634155273,-3.8525819778442383,-14.350000381469727,-88.41000366210938,-298.1300048828125,-2.711164951324463,8.973404884338379,-1.3831008672714233,14.420000076293945,7.980000019073486,-10.430000305175781
1511659059.6182604,14.95567512512207,14.745100021362305,-2.6680924892425537,61.31999969482422,-73.22000122070312,-257.6700134277344,-2.7709875106811523,9.803744316101074,-0.7489802241325378,5.039999961853027,-2.5899999141693115,-7.559999942779541
1511659059.6602201,23.96976089477539,0.4833674430847168,2.9624202251434326,24.989999771118164,-19.18000030517578,-17.639999389648438,-1.7085363864898682,14.156444549560547,-0.9595561623573303,-9.100000381469727,-6.090000152587891,-14.630000114440918
1511659059.7405457,4.503453254699707,15.898481369018555,13.09160041809082,-75.11000061035156,-82.52999877929688,164.4300079345703,-0.9667348861694336,15.24282455444336,0.9069121479988098,-11.0600004196167,-12.039999961853027,-44.79999923706055
1511659059.8731883,2.2947988510131836,6.721678733825684,-7.310334205627441,36.540000915527344,-63.06999969482422,165.05999755859375,-8.545074462890625,17.020755767822266,-7.420407772064209,24.780000686645508,-24.219999313354492,-146.72000122070312
1511659059.939276,2.9959208965301514,10.476151466369629,-0.2536482512950897,4.130000114440918,-8.329999923706055,56.77000045776367,5.965519905090332,13.909975051879883,-1.514710783958435,113.54000091552734,-96.94999694824219,-344.5400085449219
1511659059.9925122,2.4718739986419678,9.93056869506836,-0.7681235074996948,2.799999952316284,-5.039999961853027,19.110000610351562,1.5338541269302368,7.406050682067871,-0.17946811020374298,130.33999633789062,-93.94000244140625,-180.32000732421875
1511659060.081129,2.457516670227051,9.195945739746094,-1.2443121671676636,4.199999809265137,-10.569999694824219,21.350000381469727,-2.184725046157837,10.808765411376953,0.6604426503181458,22.190000534057617,-111.37000274658203,153.02000427246094
1511659060.1474123,2.7733805179595947,9.195945739746094,-1.0385221242904663,2.0999999046325684,0.8400000333786011,14.90999984741211,-7.851131439208984,16.652246475219727,-1.3519930839538574,50.61000061035156,9.65999984741211,293.2300109863281
1511659060.2302208,3.366821765899658,9.473523139953613,-0.3613291084766388,-21.489999771118164,8.329999923706055,16.729999542236328,-15.104036331176758,16.305274963378906,-4.1205878257751465,55.790000915527344,70.9800033569336,287.6300048828125
1511659060.3536284,2.7374868392944336,12.450301170349121,0.5982270240783691,8.050000190734863,-0.14000000059604645,53.34000015258789,-26.003732681274414,-0.825553297996521,7.351013660430908,147.83999633789062,47.25,87.01000213623047
1511659060.4421535,1.1438100337982178,14.369413375854492,-1.3184924125671387,14.420000076293945,8.680000305175781,151.47999572753906,-6.542210578918457,10.569475173950195,7.197867393493652,-95.12999725341797,67.05999755859375,-136.22000122070312
1511659060.4944901,6.479995250701904,20.53593635559082,-4.663777828216553,51.45000076293945,55.720001220703125,331.8699951171875,-3.905225992202759,9.849209785461426,-2.605876922607422,-35.70000076293945,56.97999954223633,-124.80999755859375
1511659060.5724635,-2.5029819011688232,13.017419815063477,-5.874589443206787,136.14999389648438,131.6699981689453,-44.65999984741211,-2.7709875106811523,11.404600143432617,0.5479759573936462,-16.940000534057617,24.290000915527344,-63.13999938964844
1511659060.707338,-2.703986167907715,7.087793827056885,0.8805902004241943,91.84000396728516,45.63999938964844,-184.4499969482422,-2.9528486728668213,8.87051010131836,-0.8111958503723145,4.340000152587891,18.690000534057617,-33.31999969482422
1511659060.7912805,3.5295393466949463,11.198809623718262,0.6532639265060425,36.04999923706055,28.0,-259.55999755859375,-2.572376251220703,9.19355297088623,-1.1916682720184326,8.819999694824219,7.980000019073486,-21.21000099182129
1511659060.882637,11.603211402893066,17.78648567199707,-5.374471664428711,13.230000495910645,-112.27999877929688,-253.1199951171875,-3.091637372970581,8.798723220825195,-1.7300724983215332,2.1700000762939453,0.5600000023841858,-13.230000495910645
1511659060.9490738,26.489492416381836,0.9116979837417603,4.474738121032715,42.279998779296875,-67.41000366210938,-112.41999816894531,-3.414679765701294,10.167466163635254,-0.007178724277764559,-22.399999618530273,-14.84000015258789,-26.600000381469727
1511659061.1241536,5.647263050079346,8.616862297058105,-3.7544727325439453,-62.720001220703125,-40.459999084472656,121.30999755859375,-2.7662017345428467,13.19449520111084,0.5719050168991089,10.149999618530273,-18.059999465942383,-83.93000030517578
1511659061.1811,2.615448474884033,10.63408374786377,0.27518442273139954,-36.68000030517578,-54.67000198364258,137.33999633789062,0.0023929080925881863,16.484743118286133,-3.385964870452881,128.02999877929688,-67.12999725341797,-254.8699951171875
1511659061.2491584,2.7374868392944336,9.607525825500488,-0.6245490312576294,-12.039999961853027,-15.329999923706055,46.619998931884766,4.091872692108154,5.541975021362305,-1.5577831268310547,15.819999694824219,-129.22000122070312,61.7400016784668
1511659061.3489926,2.6441633701324463,9.320377349853516,-0.9140908718109131,4.199999809265137,-7.349999904632568,15.260000228881836,-1.0169858932495117,9.164837837219238,-0.32543548941612244,21.559999465942383,-9.449999809265137,271.5299987792969
1511659061.412095,2.7446656227111816,9.162445068359375,-1.2610626220703125,5.25,1.6800000667572021,11.6899995803833,-8.686256408691406,14.596739768981934,0.7705163955688477,51.2400016784668,63.84000015258789,277.3399963378906
1511659061.514986,2.9767775535583496,9.650598526000977,-0.7872667908668518,-11.619999885559082,14.980000495910645,4.760000228881836,-8.243568420410156,17.523265838623047,-5.943983554840088,29.260000228881836,116.69000244140625,288.3999938964844
1511659061.6133735,3.1729960441589355,9.746315002441406,-0.41875892877578735,-25.690000534057617,9.3100004196167,13.720000267028809,-17.540016174316406,11.014555931091309,1.8856115341186523,175.91000366210938,25.270000457763672,183.25999450683594
1511659061.6661432,2.6944146156311035,12.179902076721191,0.14357449114322662,-17.43000030517578,3.7799999713897705,36.540000915527344,-17.719484329223633,6.15455961227417,3.371607542037964,13.440000534057617,-23.170000076293945,-4.269999980926514
1511659061.7121656,2.0555081367492676,13.570181846618652,0.17468228936195374,19.46000099182129,6.440000057220459,126.62999725341797,-0.8494823575019836,15.915231704711914,16.121021270751953,-49.0,42.13999938964844,-154.35000610351562
1511659061.922293,-2.9815635681152344,6.743215084075928,-0.38525819778442383,3.3600001335144043,96.73999786376953,-111.86000061035156,-3.639613151550293,10.882946014404297,1.426173210144043,-11.40999984741211,53.47999954223633,-125.09000396728516
1511659062.0191903,4.2258758544921875,7.954026699066162,-0.5072965025901794,17.780000686645508,76.16000366210938,-300.2300109863281,-2.3641932010650635,10.51443862915039,-0.10528795421123505,2.6600000858306885,18.829999923706055,-47.25
1511659062.0737512,5.061000823974609,13.895617485046387,-2.2038683891296387,23.170000076293945,-51.72999954223633,-286.44000244140625,-2.550840139389038,9.22705364227295,-1.0074143409729004,1.2599999904632568,8.260000228881836,-15.539999961853027
1511659062.2120926,11.655855178833008,18.779542922973633,-5.204575061798096,40.880001068115234,-42.13999938964844,-270.760009765625,-2.558018684387207,9.31319808959961,-1.0600582361221313,-7.630000114440918,-7.139999866485596,-7.840000152587891
1511659062.3054664,21.94775390625,5.513260364532471,1.110309362411499,41.86000061035156,-28.559999465942383,-138.8800048828125,-2.6226272583007812,10.234467506408691,-0.7202653288841248,-16.450000762939453,-1.6100000143051147,-21.350000381469727
1511659062.4052663,-3.639613151550293,26.872358322143555,-4.266555309295654,-144.6199951171875,-93.59000396728516,140.13999938964844,-2.2995846271514893,11.567317962646484,0.26561281085014343,3.990000009536743,-6.440000057220459,-62.439998626708984
1511659062.4572608,6.192846298217773,11.607996940612793,-1.2897775173187256,50.540000915527344,-34.650001525878906,179.1300048828125,0.5120823383331299,15.092071533203125,1.2658483982086182,84.20999908447266,-29.1200008392334,-196.6300048828125
1511659062.5416322,3.043779134750366,9.27969741821289,-1.4213874340057373,18.059999465942383,-4.059999942779541,61.599998474121094,-2.720736503601074,13.266282081604004,-6.724071502685547,43.540000915527344,-92.75,-369.3900146484375
1511659062.615357,2.713557720184326,10.60776138305664,-0.05264397710561752,-1.8200000524520874,-4.829999923706055,21.280000686645508,11.593639373779297,8.171781539916992,-2.7015931606292725,-3.9200000762939453,-93.80000305175781,71.75
1511659062.7414286,2.4264087677001953,9.081086158752441,-1.7037506103515625,4.619999885559082,-9.100000381469727,19.18000030517578,-1.2921704053878784,7.587911605834961,-1.4836030006408691,-45.220001220703125,-90.93000030517578,255.9199981689453
1511659062.8726645,3.141888380050659,9.176802635192871,-1.1605603694915771,-0.49000000953674316,6.159999847412109,10.010000228881836,-4.56566858291626,11.773107528686523,-3.048564910888672,22.1200008392334,31.010000228881836,258.6499938964844
1511659062.994358,3.0174570083618164,9.224660873413086,-1.079201579093933,-17.71000099182129,11.130000114440918,10.010000228881836,-7.800880432128906,18.868080139160156,-5.735800743103027,26.25,92.12000274658203,304.5
1511659063.0305638,3.1442811489105225,10.454615592956543,-0.07657305896282196,-21.6299991607666,7.699999809265137,21.280000686645508,-18.300960540771484,13.060492515563965,-1.0696299076080322,121.0999984741211,70.91000366210938,239.9600067138672
1511659063.1098297,2.852346420288086,12.842738151550293,0.9093050956726074,-1.5399999618530273,11.6899995803833,76.51000213623047,-22.03868293762207,4.618312835693359,6.535031795501709,-74.69000244140625,21.770000457763672,3.1500000953674316
1511659063.1313484,1.8664683103561401,20.51918601989746,0.09571632742881775,49.4900016784668,10.640000343322754,220.14999389648438,1.239526391029358,16.121021270751953,14.646990776062012,-82.80999755859375,47.31999969482422,-167.44000244140625
1511659063.20586,9.040407180786133,15.829087257385254,-3.8262600898742676,31.43000030517578,42.97999954223633,358.3999938964844,-3.0318145751953125,10.725013732910156,-0.509689450263977,-4.690000057220459,41.02000045776367,-132.64999389648438
1511659063.2758486,-9.617097854614258,7.887024879455566,-1.8640754222869873,67.19999694824219,78.4000015258789,-45.63999938964844,-2.802095413208008,11.13659381866455,0.708300769329071,1.75,14.980000495910645,-59.43000030517578
1511659063.3394988,1.0050214529037476,9.195945739746094,-0.3445787727832794,-5.740000247955322,25.34000015258789,-266.2099914550781,-2.5269110202789307,9.284482955932617,-1.3543859720230103,-0.699999988079071,14.489999771118164,-29.540000915527344
1511659063.4638267,5.333792209625244,11.194024085998535,-1.012200117111206,-2.309999942779541,12.109999656677246,-286.0899963378906,-2.938491106033325,9.298840522766113,-0.6054057478904724,3.5,10.779999732971191,-18.34000015258789
1511659063.5491774,7.958812236785889,13.594110488891602,-4.008121013641357,-21.6299991607666,-50.2599983215332,-263.4800109863281,-3.015064239501953,8.76761531829834,-1.4237803220748901,7.490000247955322,2.380000114440918,-10.5
1511659063.5924528,14.960461616516113,16.0635929107666,-3.7257578372955322,22.96000099182129,-85.05000305175781,-231.91000366210938,-2.9624202251434326,9.31319808959961,-1.1246668100357056,-5.880000114440918,-4.900000095367432,-6.579999923706055
1511659063.7003498,4.1493024826049805,14.788171768188477,11.564925193786621,-79.37999725341797,-41.720001220703125,149.58999633789062,-3.2376046180725098,9.899460792541504,-0.5264397859573364,-18.34000015258789,-2.940000057220459,-17.5
1511659063.7939491,12.211009979248047,10.220110893249512,-9.822887420654297,24.079999923706055,-76.2300033569336,157.00999450683594,-2.7877378463745117,13.237567901611328,3.0964231491088867,61.7400016784668,-14.980000495910645,-138.74000549316406
1511659063.8964987,3.1155662536621094,10.394792556762695,0.38525819778442383,-3.9200000762939453,-11.0600004196167,44.939998626708984,-9.621883392333984,15.905659675598145,-6.975327014923096,55.29999923706055,-39.900001525878906,-327.4599914550781
1511659063.9610476,1.9813278913497925,10.533581733703613,0.18903973698616028,2.240000009536743,4.269999980926514,6.789999961853027,5.539582252502441,17.43951416015625,-4.9437479972839355,15.119999885559082,-16.239999771118164,-171.00999450683594
1511659064.0352674,2.536482572555542,9.595561027526855,-0.260826975107193,2.1700000762939453,-1.8200000524520874,10.430000305175781,1.4955675601959229,5.027499675750732,-1.6941789388656616,3.7799999713897705,-132.3000030517578,168.27999877929688
1511659064.1464386,2.5628044605255127,9.29644775390625,-0.7896596789360046,-1.0499999523162842,-3.1500000953674316,13.579999923706055,-1.7085363864898682,10.282325744628906,-0.5719050168991089,45.56999969482422,-20.719999313354492,292.32000732421875
